ACCELEROMETER X (m/s²),ACCELEROMETER Y (m/s²),ACCELEROMETER Z (m/s²),GYROSCOPE X (rad/s),GYROSCOPE Y (rad/s),GYROSCOPE Z (rad/s),PROXIMITY (m),SOUND LEVEL (dB),Time since start in ms ,YYYY-MO-DD HH-MI-SS_SSS
9.9235,0.2418,0.3567,0.3336,-0.1029,0.3003,0.0,43.072,17,2022-11-07 15:49:58:636
9.9235,0.2418,0.3567,0.3336,-0.1029,0.3003,0.0,43.072,28,2022-11-07 15:49:58:647
9.7512,0.3256,0.3352,0.394,-0.1181,0.3077,0.0,43.072,37,2022-11-07 15:49:58:656
9.2987,0.5866,0.17,0.4673,-0.156,0.3327,0.0,43.072,47,2022-11-07 15:49:58:666
9.2987,0.5866,0.17,0.482,-0.1908,0.3571,0.0,43.072,57,2022-11-07 15:49:58:676
9.1622,0.7087,-0.2514,0.4435,-0.3289,0.417,0.0,43.072,66,2022-11-07 15:49:58:685
9.0234,0.8355,-0.7805,0.358,-0.4755,0.4775,0.0,43.072,77,2022-11-07 15:49:58:696
8.906,0.8834,-1.1468,0.2254,-0.6465,0.5557,0.0,43.072,87,2022-11-07 15:49:58:706
8.8414,0.8475,-1.2234,0.0715,-0.8151,0.6424,0.0,43.072,97,2022-11-07 15:49:58:716
8.7073,0.6703,-0.7158,-0.1093,-0.9538,0.7829,0.0,43.072,107,2022-11-07 15:49:58:726
8.7073,0.6703,-0.7158,-0.1881,-0.9575,0.9314,0.0,43.072,117,2022-11-07 15:49:58:736
8.5038,0.2825,0.2945,-0.1881,-0.9575,0.9314,0.0,43.072,127,2022-11-07 15:49:58:746
8.6259,-0.0503,1.4053,-0.0366,-0.6697,1.2545,0.0,43.072,137,2022-11-07 15:49:58:756
8.049,-0.8212,2.2145,-0.0366,-0.6697,1.2545,0.0,43.072,146,2022-11-07 15:49:58:765
8.049,-0.8212,2.2145,0.1546,-0.3918,1.4536,0.0,43.072,157,2022-11-07 15:49:58:776
7.3906,-1.8004,2.2792,0.3947,-0.0418,1.7743,0.0,43.072,168,2022-11-07 15:49:58:787
7.2398,-1.9105,2.2505,0.5657,0.1268,1.9839,0.0,43.072,177,2022-11-07 15:49:58:796
8.104,-0.9337,1.8985,0.997,0.1409,2.4933,0.0,43.072,187,2022-11-07 15:49:58:806
10.4718,-0.0718,0.9193,1.4008,-0.214,2.9851,0.0,43.072,197,2022-11-07 15:49:58:816
10.4718,-0.0718,0.9193,1.6231,-0.6691,3.271,0.0,43.072,207,2022-11-07 15:49:58:826
13.8092,-1.142,-3.1842,1.6231,-0.6691,3.271,0.0,43.072,218,2022-11-07 15:49:58:837
16.8185,-2.4324,-8.365,1.1686,-1.5457,3.0724,0.0,43.072,227,2022-11-07 15:49:58:846
19.6867,-6.1552,-9.9834,-0.8778,-2.3319,1.563,0.0,42.044,237,2022-11-07 15:49:58:856
19.6867,-6.1552,-9.9834,-1.9938,-1.7363,0.7487,0.0,42.044,247,2022-11-07 15:49:58:866
12.2506,-7.9005,-1.9871,-2.2834,-1.0295,0.6522,0.0,42.044,256,2022-11-07 15:49:58:875
9.1742,-6.9213,0.0192,-1.9847,0.3932,1.1378,0.0,42.044,267,2022-11-07 15:49:58:886
8.5852,-6.3683,-0.2777,-1.6188,1.3235,1.5599,0.0,42.044,277,2022-11-07 15:49:58:896
8.9659,-5.8416,-1.5155,-1.3017,2.1775,1.8318,0.0,42.044,286,2022-11-07 15:49:58:905
8.9659,-5.8416,-1.5155,-1.0751,2.9112,1.8458,0.0,42.044,297,2022-11-07 15:49:58:916
9.7512,-5.4921,-1.853,-0.9321,3.2856,1.654,0.0,42.044,307,2022-11-07 15:49:58:926
10.2587,-5.7626,-1.6807,-0.7037,3.5532,1.2893,0.0,42.044,318,2022-11-07 15:49:58:937
10.2731,-6.4641,-1.6735,-0.499,3.5507,0.9821,0.0,42.044,326,2022-11-07 15:49:58:945
10.2731,-6.4641,-1.6735,-0.2492,3.365,0.6943,0.0,42.044,337,2022-11-07 15:49:58:956
10.1486,-7.1895,-1.2473,-0.2492,3.365,0.6943,0.0,42.044,347,2022-11-07 15:49:58:966
9.8709,-7.9101,-0.7972,0.1289,2.9258,0.45,0.0,42.044,357,2022-11-07 15:49:58:976
9.8709,-7.9101,-0.7972,0.5364,2.2948,0.3443,0.0,42.044,367,2022-11-07 15:49:58:986
9.7799,-8.42,-0.3543,0.8473,1.6913,0.3364,0.0,42.044,376,2022-11-07 15:49:58:995
9.8374,-8.8606,-0.0527,1.2114,0.8379,0.4164,0.0,42.044,387,2022-11-07 15:49:59:006
9.8613,-8.8941,0.1724,1.5498,-0.0295,0.5233,0.0,42.044,397,2022-11-07 15:49:59:016
9.6075,-8.8438,0.3352,1.7654,-0.6661,0.6381,0.0,42.044,407,2022-11-07 15:49:59:026
9.2604,-8.59,0.5315,1.9499,-1.1847,0.8012,0.0,42.044,417,2022-11-07 15:49:59:036
9.2604,-8.59,0.5315,2.1338,-1.6147,1.0169,0.0,42.044,427,2022-11-07 15:49:59:046
8.7025,-7.9005,0.8308,2.2517,-1.7821,1.1769,0.0,42.044,437,2022-11-07 15:49:59:056
8.2453,-7.1464,1.0702,2.2517,-1.7821,1.1769,0.0,42.044,447,2022-11-07 15:49:59:066
7.9029,-6.7657,1.1013,2.3415,-1.7552,1.3284,0.0,42.044,457,2022-11-07 15:49:59:076
7.527,-6.4784,0.8906,2.3537,-1.5176,1.4365,0.0,42.044,468,2022-11-07 15:49:59:087
7.527,-6.4784,0.8906,2.2877,-1.2055,1.5019,0.0,42.044,477,2022-11-07 15:49:59:096
6.4018,-6.5933,-0.0431,2.0098,-0.583,1.629,0.0,42.044,487,2022-11-07 15:49:59:106
5.698,-6.8399,-0.8715,1.5058,0.1922,1.8086,0.0,42.044,496,2022-11-07 15:49:59:115
5.698,-6.8399,-0.8715,1.0452,0.7065,1.891,0.0,42.044,507,2022-11-07 15:49:59:126
6.646,-6.6029,-0.9888,1.0452,0.7065,1.891,0.0,42.044,517,2022-11-07 15:49:59:136
7.5965,-6.4377,-0.8523,0.6482,0.9882,1.8122,0.0,42.044,527,2022-11-07 15:49:59:146
7.8838,-5.9876,-0.5075,0.1937,0.9662,1.5282,0.0,42.044,537,2022-11-07 15:49:59:156
7.8838,-5.9876,-0.5075,-0.0916,0.7377,1.2582,0.0,42.044,546,2022-11-07 15:49:59:165
8.037,-5.698,0.0982,-0.2718,0.5294,1.0657,0.0,52.095,557,2022-11-07 15:49:59:176
7.4193,-5.5471,0.5339,-0.4288,0.2905,0.9766,0.0,52.095,567,2022-11-07 15:49:59:186
6.9333,-5.37,0.8738,-0.5339,0.2001,0.9796,0.0,52.095,576,2022-11-07 15:49:59:195
6.804,-5.0611,1.0773,-0.6169,0.1849,1.0193,0.0,52.095,588,2022-11-07 15:49:59:207
6.804,-5.0611,1.0773,-0.6896,0.2453,1.0657,0.0,52.095,597,2022-11-07 15:49:59:216
6.6747,-4.9247,1.2569,-0.722,0.2973,1.1079,0.0,52.095,606,2022-11-07 15:49:59:225
6.7083,-4.769,1.3646,-0.7599,0.395,1.172,0.0,52.095,618,2022-11-07 15:49:59:237
6.9405,-4.6182,1.4389,-0.7752,0.4885,1.1824,0.0,52.095,627,2022-11-07 15:49:59:246
6.9405,-4.6182,1.4389,-0.7752,0.4885,1.1824,0.0,52.095,637,2022-11-07 15:49:59:256
7.1416,-4.635,1.3934,-0.7819,0.5324,1.1751,0.0,52.095,647,2022-11-07 15:49:59:266
7.3212,-4.5727,1.379,-0.7819,0.5233,1.1745,0.0,52.095,657,2022-11-07 15:49:59:276
7.3212,-4.5727,1.379,-0.7819,0.5233,1.1745,0.0,52.095,671,2022-11-07 15:49:59:290
7.3212,-4.5727,1.379,-0.7819,0.5233,1.1745,0.0,52.095,677,2022-11-07 15:49:59:296
7.4433,-4.3668,1.3527,-0.7532,0.4573,1.1549,0.0,52.095,687,2022-11-07 15:49:59:306
7.4744,-3.9239,1.2138,-0.4868,-0.0674,1.0077,0.0,52.095,697,2022-11-07 15:49:59:316
7.4744,-3.9239,1.2138,-0.3304,-0.2996,0.9173,0.0,52.095,706,2022-11-07 15:49:59:325
7.4241,-3.8689,1.2761,-0.1912,-0.451,0.8513,0.0,52.095,717,2022-11-07 15:49:59:336
7.4983,-4.0197,1.3096,-0.1912,-0.451,0.8513,0.0,52.095,726,2022-11-07 15:49:59:345
7.8096,-4.3166,1.5107,0.1424,-0.6227,0.7011,0.0,52.095,737,2022-11-07 15:49:59:356
7.8096,-4.3166,1.5107,0.1424,-0.6227,0.7011,0.0,52.095,746,2022-11-07 15:49:59:365
8.1902,-4.7092,1.7429,0.3372,-0.5573,0.5807,0.0,52.095,757,2022-11-07 15:49:59:376
8.3219,-5.0108,1.7788,0.4857,-0.4339,0.4671,0.0,52.095,767,2022-11-07 15:49:59:386
8.2165,-5.2981,1.628,0.614,-0.2898,0.3578,0.0,52.095,776,2022-11-07 15:49:59:395
8.0801,-5.4155,1.5322,0.7386,-0.1175,0.2344,0.0,52.095,787,2022-11-07 15:49:59:406
7.7569,-5.4298,1.209,0.8369,0.0059,0.1177,0.0,52.095,797,2022-11-07 15:49:59:416
7.7569,-5.4298,1.209,0.8766,0.0334,0.0419,0.0,52.095,807,2022-11-07 15:49:59:426
7.3954,-5.37,0.9145,0.9176,0.015,-0.0888,0.0,52.095,817,2022-11-07 15:49:59:436
7.1105,-5.3819,0.6871,0.9206,-0.0656,-0.214,0.0,52.095,826,2022-11-07 15:49:59:445
6.9549,-5.5806,0.5099,0.9047,-0.1395,-0.2849,0.0,52.095,837,2022-11-07 15:49:59:456
6.9549,-5.5806,0.5099,0.9047,-0.1395,-0.2849,0.0,52.095,846,2022-11-07 15:49:59:465
7.0051,-5.7075,0.4525,0.8345,-0.2989,-0.4119,0.0,52.095,857,2022-11-07 15:49:59:476
6.974,-6.1672,0.5722,0.7257,-0.4132,-0.5127,0.0,52.095,868,2022-11-07 15:49:59:487
7.1177,-6.3491,0.6656,0.6579,-0.4822,-0.6031,0.0,52.095,877,2022-11-07 15:49:59:496
7.1871,-6.3348,0.644,0.5718,-0.5189,-0.6685,0.0,52.095,887,2022-11-07 15:49:59:506
7.1871,-6.3348,0.644,0.4179,-0.4834,-0.7113,0.0,45.013,897,2022-11-07 15:49:59:516
7.0865,-6.6556,0.8427,0.3146,-0.4248,-0.732,0.0,45.013,907,2022-11-07 15:49:59:526
6.9237,-7.1775,1.051,0.1845,-0.2916,-0.6832,0.0,45.013,918,2022-11-07 15:49:59:537
6.9237,-7.1775,1.051,0.1845,-0.2916,-0.6832,0.0,45.013,927,2022-11-07 15:49:59:546
6.9836,-7.2661,1.1252,0.0208,-0.0925,-0.6074,0.0,45.013,937,2022-11-07 15:49:59:556
7.1607,-7.2517,1.1396,-0.1001,0.0596,-0.5769,0.0,45.013,946,2022-11-07 15:49:59:565
7.3188,-7.1799,1.1037,-0.2211,0.1952,-0.586,0.0,45.013,957,2022-11-07 15:49:59:576
7.3044,-7.1703,1.0654,-0.3598,0.3327,-0.6404,0.0,45.013,967,2022-11-07 15:49:59:586
7.3044,-7.1703,1.0654,-0.4642,0.4164,-0.6929,0.0,45.013,977,2022-11-07 15:49:59:596
7.2876,-7.2876,1.1109,-0.5943,0.5202,-0.7412,0.0,45.013,987,2022-11-07 15:49:59:606
7.2374,-7.4385,1.1516,-0.7214,0.6357,-0.7681,0.0,45.013,996,2022-11-07 15:49:59:615
7.2302,-7.5677,1.1779,-0.8204,0.7304,-0.7785,0.0,45.013,1007,2022-11-07 15:49:59:626
7.2302,-7.5677,1.1779,-0.9156,0.8281,-0.7803,0.0,45.013,1017,2022-11-07 15:49:59:636
7.1488,-7.6396,1.221,-1.0024,0.9332,-0.7803,0.0,45.013,1026,2022-11-07 15:49:59:645
6.9549,-7.5486,1.2737,-1.0745,1.0364,-0.7852,0.0,45.013,1037,2022-11-07 15:49:59:656
6.9549,-7.5486,1.2737,-1.1435,1.1415,-0.8212,0.0,45.013,1046,2022-11-07 15:49:59:665
6.6747,-7.2828,1.221,-1.1979,1.2319,-0.8304,0.0,45.013,1057,2022-11-07 15:49:59:676
6.3372,-7.1967,1.2689,-1.2382,1.3382,-0.8176,0.0,45.013,1068,2022-11-07 15:49:59:687
6.1887,-7.1081,1.2449,-1.2382,1.3382,-0.8176,0.0,45.013,1077,2022-11-07 15:49:59:696
6.1887,-7.1081,1.2449,-1.2754,1.4683,-0.7931,0.0,45.013,1087,2022-11-07 15:49:59:706
6.1457,-7.0793,1.1755,-1.3005,1.5453,-0.7772,0.0,45.013,1097,2022-11-07 15:49:59:716
6.0379,-7.0722,1.0989,-1.3286,1.6051,-0.732,0.0,45.013,1107,2022-11-07 15:49:59:726
6.0427,-7.0961,1.0343,-1.3512,1.5709,-0.6312,0.0,45.013,1117,2022-11-07 15:49:59:736
6.0427,-7.0961,1.0343,-1.3512,1.5709,-0.6312,0.0,45.013,1127,2022-11-07 15:49:59:746
6.1864,-7.2182,0.9433,-1.3469,1.4891,-0.5885,0.0,45.013,1138,2022-11-07 15:49:59:757
6.3803,-7.3882,0.9744,-1.32,1.3095,-0.5207,0.0,45.013,1146,2022-11-07 15:49:59:765
6.5766,-7.6108,1.0845,-1.2718,1.1519,-0.4626,0.0,45.013,1157,2022-11-07 15:49:59:776
6.7585,-7.7641,1.2114,-1.2718,1.1519,-0.4626,0.0,45.013,1167,2022-11-07 15:49:59:786
6.7585,-7.7641,1.2114,-1.193,0.9411,-0.3893,0.0,45.013,1177,2022-11-07 15:49:59:796
6.8687,-7.7258,1.3742,-1.1062,0.7933,-0.3386,0.0,45.013,1187,2022-11-07 15:49:59:806
6.7897,-7.6037,1.5131,-1.0036,0.6888,-0.2898,0.0,45.013,1197,2022-11-07 15:49:59:816
6.6484,-7.4026,1.5897,-0.8478,0.5819,-0.2183,0.0,47.869,1207,2022-11-07 15:49:59:826
6.6484,-7.4026,1.5897,-0.6676,0.4842,-0.1407,0.0,47.869,1217,2022-11-07 15:49:59:836
6.6221,-7.1703,1.5657,-0.5168,0.3913,-0.0882,0.0,47.869,1227,2022-11-07 15:49:59:846
6.7011,-6.9956,1.5155,-0.3671,0.2802,-0.0369,0.0,47.869,1237,2022-11-07 15:49:59:856
6.8304,-6.9525,1.4772,-0.1796,0.1152,0.0218,0.0,47.869,1247,2022-11-07 15:49:59:866
6.8304,-6.9525,1.4772,-0.0366,-0.0369,0.0688,0.0,47.869,1257,2022-11-07 15:49:59:876
6.9525,-6.9381,1.4221,0.0953,-0.203,0.1134,0.0,47.869,1269,2022-11-07 15:49:59:888
7.0243,-6.9213,1.4005,0.2145,-0.3539,0.1562,0.0,47.869,1277,2022-11-07 15:49:59:896
7.077,-6.8184,1.4005,0.3232,-0.4944,0.1946,0.0,47.869,1287,2022-11-07 15:49:59:906
7.077,-6.8184,1.4005,0.4466,-0.6416,0.2325,0.0,47.869,1297,2022-11-07 15:49:59:916
7.1272,-6.6556,1.4365,0.5174,-0.7058,0.2478,0.0,47.869,1307,2022-11-07 15:49:59:926
7.2134,-6.5359,1.4843,0.5174,-0.7058,0.2478,0.0,47.869,1317,2022-11-07 15:49:59:936
7.2469,-6.5,1.458,0.6231,-0.7876,0.2618,0.0,47.869,1327,2022-11-07 15:49:59:946
7.302,-6.4832,1.4652,0.7306,-0.8548,0.2741,0.0,47.869,1337,2022-11-07 15:49:59:956
7.302,-6.4832,1.4652,0.7978,-0.8896,0.2844,0.0,47.869,1347,2022-11-07 15:49:59:966
7.3595,-6.4329,1.4436,0.8296,-0.9031,0.2863,0.0,47.869,1357,2022-11-07 15:49:59:976
7.3978,-6.3994,1.4197,0.876,-0.9232,0.2881,0.0,47.869,1368,2022-11-07 15:49:59:987
7.4169,-6.3587,1.391,0.8931,-0.93,0.2857,0.0,47.869,1377,2022-11-07 15:49:59:996
7.4169,-6.3587,1.391,0.9017,-0.922,0.2771,0.0,47.869,1387,2022-11-07 15:50:00:006
7.4672,-6.2917,1.4389,0.9053,-0.8841,0.2557,0.0,47.869,1397,2022-11-07 15:50:00:016
7.4241,-6.3276,1.379,0.8846,-0.8493,0.2527,0.0,47.869,1407,2022-11-07 15:50:00:026
7.4744,-6.33,1.3311,0.8552,-0.8127,0.2496,0.0,47.869,1417,2022-11-07 15:50:00:036
7.4744,-6.33,1.3311,0.8552,-0.8127,0.2496,0.0,47.869,1427,2022-11-07 15:50:00:046
7.5582,-6.3563,1.2976,0.8015,-0.7748,0.235,0.0,47.869,1437,2022-11-07 15:50:00:056
7.618,-6.3515,1.3024,0.7502,-0.7449,0.2179,0.0,47.869,1446,2022-11-07 15:50:00:065
7.5773,-6.2582,1.3144,0.6763,-0.6984,0.194,0.0,47.869,1457,2022-11-07 15:50:00:076
7.4744,-6.0786,1.3407,0.6005,-0.6337,0.1611,0.0,47.869,1468,2022-11-07 15:50:00:087
7.4744,-6.0786,1.3407,0.5388,-0.561,0.1323,0.0,47.869,1477,2022-11-07 15:50:00:096