ACCELEROMETER X (m/s²),ACCELEROMETER Y (m/s²),ACCELEROMETER Z (m/s²),GYROSCOPE X (rad/s),GYROSCOPE Y (rad/s),GYROSCOPE Z (rad/s),PROXIMITY (m),SOUND LEVEL (dB),Time since start in ms ,YYYY-MO-DD HH-MI-SS_SSS
8.2764,-3.3948,-3.7037,0.2652,-0.0705,0.8745,0.0,48.005,14,2022-11-07 15:47:55:316
8.2764,-3.3948,-3.7037,0.2908,-0.1853,0.9686,0.0,48.005,24,2022-11-07 15:47:55:326
8.3339,-3.2847,-3.6342,0.2908,-0.1853,0.9686,0.0,48.005,34,2022-11-07 15:47:55:336
8.3698,-3.1147,-3.572,0.3281,-0.2965,1.1348,0.0,48.005,44,2022-11-07 15:47:55:346
8.3698,-3.1147,-3.572,0.3348,-0.2195,1.2661,0.0,48.005,54,2022-11-07 15:47:55:356
8.195,-3.1722,-3.7132,0.3177,-0.1175,1.3687,0.0,48.005,64,2022-11-07 15:47:55:366
7.934,-3.402,-3.9431,0.3482,-0.1193,1.563,0.0,48.005,74,2022-11-07 15:47:55:376
8.3075,-3.8186,-4.2854,0.4179,-0.2201,1.7743,0.0,48.005,84,2022-11-07 15:47:55:386
9.0234,-4.7379,-3.4355,0.559,-0.3374,2.285,0.0,48.005,94,2022-11-07 15:47:55:396
9.0234,-4.7379,-3.4355,0.5523,-0.021,2.6167,0.0,48.005,104,2022-11-07 15:47:55:406
11.1206,-5.1617,-4.7858,0.5969,-0.1841,2.6467,0.0,48.005,114,2022-11-07 15:47:55:416
13.2729,-6.069,-4.4865,0.5688,-0.1175,2.0181,0.0,48.005,124,2022-11-07 15:47:55:426
13.2729,-6.069,-4.4865,0.5688,-0.1175,2.0181,0.0,48.005,133,2022-11-07 15:47:55:435
11.7861,-5.9469,-3.6725,0.4686,0.1995,0.8782,0.0,48.005,145,2022-11-07 15:47:55:447
9.4711,-5.7482,-2.8155,0.5455,0.2435,0.3687,0.0,48.005,154,2022-11-07 15:47:55:456
9.4711,-6.069,-1.7429,0.6695,0.1513,0.3162,0.0,48.005,164,2022-11-07 15:47:55:466
7.946,-6.069,-1.7429,0.9231,0.1146,0.508,0.0,48.005,177,2022-11-07 15:47:55:479
7.9676,-6.9261,-0.9074,1.0336,0.3199,0.6088,0.0,48.005,184,2022-11-07 15:47:55:486
9.4447,-8.4871,-0.9169,1.176,0.8251,0.5184,0.0,48.005,194,2022-11-07 15:47:55:496
9.4447,-8.4871,-0.9169,1.2346,1.0132,0.2136,0.0,48.005,203,2022-11-07 15:47:55:505
9.6602,-9.5884,-1.1492,1.292,1.0688,-0.2,0.0,48.005,214,2022-11-07 15:47:55:516
9.3944,-10.0959,-1.4245,1.3439,0.9448,-0.7785,0.0,48.005,224,2022-11-07 15:47:55:526
8.7768,-10.479,-1.6735,1.3439,0.9448,-0.7785,0.0,48.005,234,2022-11-07 15:47:55:536
8.1495,-10.7184,-1.5753,1.3904,0.6198,-1.2745,0.0,48.005,244,2022-11-07 15:47:55:546
8.1495,-10.7184,-1.5753,1.4356,0.2899,-1.5775,0.0,48.005,254,2022-11-07 15:47:55:556
7.7808,-10.5125,-1.1085,1.5321,-0.1291,-1.9721,0.0,48.005,264,2022-11-07 15:47:55:566
7.4456,-10.1701,-0.5339,1.5883,-0.3093,-2.2103,0.0,48.005,274,2022-11-07 15:47:55:576
7.4456,-10.1701,-0.5339,1.5755,-0.2831,-2.3356,0.0,48.005,284,2022-11-07 15:47:55:586
7.223,-10.3952,-0.0575,1.4569,-0.0302,-2.2903,0.0,48.005,294,2022-11-07 15:47:55:596
7.46,-10.9769,0.6584,1.4569,-0.0302,-2.2903,0.0,48.005,306,2022-11-07 15:47:55:608
7.4528,-11.6928,1.3359,1.176,0.6913,-1.9452,0.0,48.005,315,2022-11-07 15:47:55:617
7.6731,-11.3911,1.3263,0.9078,1.7291,-1.2152,0.0,48.005,326,2022-11-07 15:47:55:628
7.6731,-11.3911,1.3263,0.7257,2.5905,-0.5445,0.0,48.005,334,2022-11-07 15:47:55:636
8.5326,-9.9355,0.96,0.5926,3.4554,0.1549,0.0,48.005,345,2022-11-07 15:47:55:647
9.3633,-7.9293,-2.5713,0.606,3.5122,0.4341,0.0,48.005,354,2022-11-07 15:47:55:656
9.3633,-7.9293,-2.5713,0.606,2.8128,0.4585,0.0,48.005,364,2022-11-07 15:47:55:666
8.8318,-6.8782,-9.8206,0.5303,0.3199,0.4298,0.0,48.005,377,2022-11-07 15:47:55:679
7.8048,-7.3595,-13.3279,0.5303,0.3199,0.4298,0.0,48.005,384,2022-11-07 15:47:55:686
7.9221,-7.8072,2.497,0.2841,-3.2567,0.6412,0.0,48.005,394,2022-11-07 15:47:55:696
7.9221,-7.8072,2.497,0.3421,-2.1303,0.745,0.0,48.005,404,2022-11-07 15:47:55:706
6.9836,-6.5,3.074,0.5022,-0.5946,0.8257,0.0,48.005,413,2022-11-07 15:47:55:715
6.3037,-5.4609,2.5497,0.7325,1.1018,0.8214,0.0,48.005,424,2022-11-07 15:47:55:726
5.8392,-4.9318,1.8722,0.8943,2.2514,0.7964,0.0,48.005,433,2022-11-07 15:47:55:735
5.8129,-4.8409,1.2306,1.0464,3.3308,0.7921,0.0,48.005,444,2022-11-07 15:47:55:746
5.8129,-4.8409,1.2306,1.1246,3.9093,0.7945,0.0,48.005,453,2022-11-07 15:47:55:755
5.9445,-4.5153,-1.2042,0.9854,3.8806,0.7841,0.0,48.005,464,2022-11-07 15:47:55:766
6.1624,-4.4961,-2.1403,0.6091,3.2154,0.7249,0.0,48.005,474,2022-11-07 15:47:55:776
5.7985,-5.0324,0.474,0.5455,3.227,0.8501,0.0,48.005,484,2022-11-07 15:47:55:786
5.7985,-5.0324,0.474,0.5455,3.227,0.8501,0.0,48.005,493,2022-11-07 15:47:55:795
5.9422,-4.9534,-0.0168,0.5113,3.1524,0.9564,0.0,48.005,505,2022-11-07 15:47:55:807
6.3204,-5.2527,-0.3495,0.4399,2.9313,1.026,0.0,48.005,514,2022-11-07 15:47:55:816
6.7083,-5.753,-0.656,0.2505,2.3785,1.0737,0.0,48.005,524,2022-11-07 15:47:55:826
6.7083,-5.753,-0.656,0.0801,1.8702,1.0584,0.0,48.005,533,2022-11-07 15:47:55:835
6.974,-6.1361,-0.6584,-0.1081,1.3229,1.0144,0.0,48.005,544,2022-11-07 15:47:55:846
6.974,-6.1361,-0.6584,-0.3311,0.5709,0.9515,0.0,48.005,554,2022-11-07 15:47:55:856
6.9788,-6.488,0.1772,-0.4031,0.3357,0.9411,0.0,48.005,564,2022-11-07 15:47:55:866
6.8112,-6.4042,1.1348,-0.4508,0.1934,0.9472,0.0,48.005,574,2022-11-07 15:47:55:876
6.6604,-5.9158,1.5993,-0.4221,0.2808,0.9509,0.0,48.005,584,2022-11-07 15:47:55:886
6.6604,-5.9158,1.5993,-0.4221,0.2808,0.9509,0.0,48.005,594,2022-11-07 15:47:55:896
6.4712,-5.6333,1.7022,-0.3683,0.384,0.9527,0.0,48.005,604,2022-11-07 15:47:55:906
6.0475,-4.9199,1.5322,-0.2138,0.5581,0.9643,0.0,48.005,614,2022-11-07 15:47:55:916
5.9062,-4.7403,1.2689,-0.0983,0.6339,0.9857,0.0,48.005,624,2022-11-07 15:47:55:926
5.9062,-4.7403,1.2689,0.0086,0.6418,1.0297,0.0,48.005,634,2022-11-07 15:47:55:936
6.2199,-4.635,0.9888,0.1497,0.5483,1.0773,0.0,48.005,644,2022-11-07 15:47:55:946
6.7274,-4.6398,0.9792,0.3,0.37,1.0792,0.0,48.005,654,2022-11-07 15:47:55:956
6.7274,-4.6398,0.9792,0.4142,0.2069,1.0511,0.0,48.005,663,2022-11-07 15:47:55:965
7.1081,-4.6876,0.9193,0.4142,0.2069,1.0511,0.0,48.005,674,2022-11-07 15:47:55:976
7.2421,-4.6589,0.8547,0.5639,-0.0564,0.9845,0.0,48.005,684,2022-11-07 15:47:55:986
7.3595,-4.6805,0.8164,0.7813,-0.5066,0.8422,0.0,48.005,694,2022-11-07 15:47:55:996
7.6803,-5.0228,0.9576,0.9377,-0.8554,0.7078,0.0,48.005,705,2022-11-07 15:47:56:007
7.6803,-5.0228,0.9576,1.0477,-1.0949,0.5691,0.0,48.005,714,2022-11-07 15:47:56:016
7.9723,-5.4131,1.1994,1.1338,-1.2629,0.3926,0.0,48.005,724,2022-11-07 15:47:56:026
8.013,-5.765,1.4005,1.1338,-1.2629,0.3926,0.0,48.005,734,2022-11-07 15:47:56:036
7.8431,-5.9733,1.4939,1.2047,-1.4297,0.1134,0.0,48.005,744,2022-11-07 15:47:56:046
7.3786,-6.2055,1.4796,1.2028,-1.4944,-0.0332,0.0,48.005,755,2022-11-07 15:47:56:057
7.3786,-6.2055,1.4796,1.1601,-1.539,-0.1279,0.0,48.005,763,2022-11-07 15:47:56:065
7.0171,-6.0786,1.2066,1.0672,-1.6325,-0.2122,0.0,48.005,774,2022-11-07 15:47:56:076
6.6795,-5.9206,1.2162,0.9096,-1.7699,-0.3118,0.0,48.005,784,2022-11-07 15:47:56:086
6.4521,-5.5878,0.9193,0.7648,-1.8579,-0.3716,0.0,48.005,794,2022-11-07 15:47:56:096
6.1935,-5.6237,1.1037,0.5553,-2.0222,-0.4859,0.0,48.005,807,2022-11-07 15:47:56:109
6.1935,-5.6237,1.1037,0.3549,-2.0778,-0.5506,0.0,48.005,814,2022-11-07 15:47:56:116
6.4066,-6.1313,1.4029,0.1198,-2.0637,-0.583,0.0,48.005,824,2022-11-07 15:47:56:126
6.4066,-6.1313,1.4029,-0.1783,-2.0985,-0.6807,0.0,48.005,833,2022-11-07 15:47:56:135
6.9189,-6.8232,1.6424,-0.3268,-2.0692,-0.6942,0.0,48.005,845,2022-11-07 15:47:56:147
7.4983,-7.0889,1.6376,-0.7635,-2.0271,-0.7925,0.0,48.005,855,2022-11-07 15:47:56:157
7.5007,-8.2525,2.1212,-0.7635,-2.0271,-0.7925,0.0,48.005,864,2022-11-07 15:47:56:166
7.5007,-8.2525,2.1212,-1.2156,-1.8597,-0.8102,0.0,48.005,874,2022-11-07 15:47:56:176
7.5965,-8.8246,2.3797,-1.7244,-1.5341,-0.7614,0.0,48.005,884,2022-11-07 15:47:56:186
7.7114,-9.0497,2.521,-2.1191,-1.2311,-0.7388,0.0,48.005,894,2022-11-07 15:47:56:196
7.958,-9.1838,2.588,-2.5589,-0.8554,-0.7852,0.0,48.005,904,2022-11-07 15:47:56:206
7.958,-9.1838,2.588,-2.8588,-0.5353,-0.9104,0.0,48.005,914,2022-11-07 15:47:56:216
8.116,-9.1694,2.6551,-3.13,-0.2024,-1.1584,0.0,48.005,923,2022-11-07 15:47:56:225
7.6491,-9.2101,2.7293,-3.2528,-0.0277,-1.429,0.0,48.005,934,2022-11-07 15:47:56:236
7.0219,-8.9467,2.7939,-3.2766,0.1024,-1.6239,0.0,48.005,944,2022-11-07 15:47:56:246
7.0219,-8.9467,2.7939,-3.2901,0.3968,-1.7748,0.0,48.005,954,2022-11-07 15:47:56:256
6.3324,-8.8773,3.0525,-3.2944,0.8519,-1.8072,0.0,48.005,964,2022-11-07 15:47:56:266
5.4514,-8.8677,3.2799,-3.2827,1.2502,-1.776,0.0,48.005,973,2022-11-07 15:47:56:275
5.1617,-8.6235,3.0597,-3.2412,1.8977,-1.6862,0.0,48.005,984,2022-11-07 15:47:56:286
4.9965,-8.5661,2.7652,-3.2033,2.3779,-1.5805,0.0,48.005,994,2022-11-07 15:47:56:296
4.9965,-8.5661,2.7652,-3.2033,2.3779,-1.5805,0.0,48.005,1003,2022-11-07 15:47:56:305
5.1258,-8.4991,2.5832,-3.1288,2.8721,-1.4779,0.0,48.005,1014,2022-11-07 15:47:56:316
5.2072,-8.5158,2.4109,-2.9388,3.5574,-1.3973,0.0,48.005,1026,2022-11-07 15:47:56:328
5.2407,-8.4751,2.2552,-2.9388,3.5574,-1.3973,0.0,48.005,1034,2022-11-07 15:47:56:336
5.1521,-8.5445,2.1164,-2.8503,3.7987,-1.3728,0.0,48.005,1044,2022-11-07 15:47:56:346
5.1521,-8.5445,2.1164,-2.7708,4.015,-1.3124,0.0,48.005,1054,2022-11-07 15:47:56:356
4.8337,-8.3889,1.7142,-2.6609,4.172,-1.1951,0.0,48.005,1064,2022-11-07 15:47:56:366
4.8193,-8.3339,1.5873,-2.5491,4.2031,-1.0314,0.0,48.005,1074,2022-11-07 15:47:56:376
5.0252,-8.1615,1.5131,-2.4416,4.1915,-0.8896,0.0,48.005,1084,2022-11-07 15:47:56:386
5.0252,-8.1615,1.5131,-2.342,4.1335,-0.7833,0.0,48.005,1094,2022-11-07 15:47:56:396
5.2239,-7.9867,1.446,-2.2302,4.0168,-0.6972,0.0,48.005,1104,2022-11-07 15:47:56:406
5.3221,-7.8,1.4341,-2.2302,4.0168,-0.6972,0.0,48.005,1114,2022-11-07 15:47:56:416
5.1976,-7.7641,1.3886,-2.1099,3.8488,-0.6074,0.0,48.005,1124,2022-11-07 15:47:56:426
5.3604,-7.6779,1.2162,-1.9651,3.5623,-0.4461,0.0,48.005,1134,2022-11-07 15:47:56:436
5.3604,-7.6779,1.2162,-1.8704,3.2691,-0.2977,0.0,48.005,1144,2022-11-07 15:47:56:446
5.6501,-7.5893,1.1276,-1.7745,2.8513,-0.1169,0.0,48.005,1154,2022-11-07 15:47:56:456
5.8177,-7.6779,1.0486,-1.7391,2.5733,-0.0075,0.0,48.005,1164,2022-11-07 15:47:56:466
6.5694,-7.4744,1.3814,-1.5656,1.6546,0.304,0.0,48.005,1185,2022-11-07 15:47:56:487
6.5694,-7.4744,1.3814,-1.5656,1.6546,0.304,0.0,48.005,1191,2022-11-07 15:47:56:493
6.5694,-7.4744,1.3814,-1.5656,1.6546,0.304,0.0,48.005,1194,2022-11-07 15:47:56:496
6.6819,-7.3978,1.4293,-1.529,1.4457,0.3865,0.0,48.005,1204,2022-11-07 15:47:56:506