ACCELEROMETER X (m/s²),ACCELEROMETER Y (m/s²),ACCELEROMETER Z (m/s²),GYROSCOPE X (rad/s),GYROSCOPE Y (rad/s),GYROSCOPE Z (rad/s),PROXIMITY (m),SOUND LEVEL (dB),Time since start in ms ,YYYY-MO-DD HH-MI-SS_SSS
7.7521,-7.3307,-4.9199,0.7221,-0.9513,0.0859,0.0,36.792,13,2022-11-07 15:49:20:127
7.6013,-7.5965,-4.5057,0.6402,-1.043,0.0322,0.0,36.792,23,2022-11-07 15:49:20:137
7.5725,-7.9843,-4.2399,0.529,-1.0918,-0.0503,0.0,36.792,32,2022-11-07 15:49:20:146
7.7353,-8.523,-3.7994,0.4289,-1.0094,-0.1132,0.0,36.792,43,2022-11-07 15:49:20:157
8.1016,-9.2508,-2.7556,0.3611,-0.8005,-0.2201,0.0,36.792,52,2022-11-07 15:49:20:166
8.1016,-9.2508,-2.7556,0.3721,-0.539,-0.3478,0.0,39.796,63,2022-11-07 15:49:20:177
8.2788,-9.8493,-2.1499,0.4496,-0.1584,-0.5274,0.0,39.796,73,2022-11-07 15:49:20:187
8.5996,-10.3473,-1.3527,0.4496,-0.1584,-0.5274,0.0,39.796,83,2022-11-07 15:49:20:197
8.8701,-10.5269,-0.9193,0.5675,0.3443,-0.7168,0.0,39.796,93,2022-11-07 15:49:20:207
8.8701,-10.5269,-0.9193,0.6799,0.7462,-0.8768,0.0,39.796,102,2022-11-07 15:49:20:216
8.9683,-10.2779,-0.5075,0.7966,1.1103,-1.0259,0.0,39.796,113,2022-11-07 15:49:20:227
9.0042,-9.7344,0.0287,1.0574,1.8336,-1.3496,0.0,39.796,125,2022-11-07 15:49:20:239
8.6906,-9.3442,0.5363,1.0574,1.8336,-1.3496,0.0,39.796,133,2022-11-07 15:49:20:247
8.6906,-9.3442,0.5363,1.1961,2.2135,-1.4211,0.0,39.796,143,2022-11-07 15:49:20:257
8.2022,-9.1119,0.9145,1.2816,2.5807,-1.3386,0.0,39.796,153,2022-11-07 15:49:20:267
7.8311,-9.0952,1.0582,1.2957,2.8269,-1.1737,0.0,39.796,163,2022-11-07 15:49:20:277
7.8,-9.1239,0.7326,1.2444,2.9967,-0.9128,0.0,39.796,174,2022-11-07 15:49:20:288
7.8,-9.1239,0.7326,1.1588,2.9722,-0.7241,0.0,39.796,183,2022-11-07 15:49:20:297
8.1567,-9.0305,0.4812,1.1588,2.9722,-0.7241,0.0,39.796,193,2022-11-07 15:49:20:307
8.3889,-8.9372,0.225,1.0733,2.8201,-0.5897,0.0,39.796,203,2022-11-07 15:49:20:317
8.4727,-8.8701,-0.1221,0.9658,2.442,-0.4975,0.0,39.796,213,2022-11-07 15:49:20:327
8.3602,-8.456,-0.1915,0.8504,1.9148,-0.4724,0.0,39.796,224,2022-11-07 15:49:20:338
8.3602,-8.456,-0.1915,0.7777,1.4823,-0.4797,0.0,39.796,233,2022-11-07 15:49:20:347
7.7258,-8.2549,-0.1101,0.6714,1.1403,-0.4156,0.0,39.796,243,2022-11-07 15:49:20:357
5.8799,-8.3147,-0.3328,0.6714,1.1403,-0.4156,0.0,39.796,252,2022-11-07 15:49:20:366
1.1109,-8.9563,-4.7212,-1.5534,5.0412,0.8703,0.0,39.796,263,2022-11-07 15:49:20:377
1.1109,-8.9563,-4.7212,-1.5534,5.0412,0.8703,0.0,39.796,273,2022-11-07 15:49:20:387
11.293,-7.3619,-1.7836,-1.3237,4.172,0.3962,0.0,39.796,283,2022-11-07 15:49:20:397
9.653,-8.2692,-1.1037,-0.8821,2.3962,-0.503,0.0,39.796,293,2022-11-07 15:49:20:407
9.653,-8.2692,-1.1037,-0.8894,1.8275,-0.6832,0.0,39.796,302,2022-11-07 15:49:20:416
7.5917,-8.5421,-0.9576,-1.0861,1.6607,-0.5689,0.0,39.796,313,2022-11-07 15:49:20:427
8.1854,-7.9891,0.6991,-1.2052,1.2716,-0.3851,0.0,39.796,328,2022-11-07 15:49:20:442
7.6827,-7.3499,1.525,-1.2052,1.2716,-0.3851,0.0,39.796,333,2022-11-07 15:49:20:447
7.6827,-7.3499,1.525,-1.1527,1.2795,-0.3392,0.0,39.796,344,2022-11-07 15:49:20:458
6.9142,-6.5646,1.8746,-1.1527,1.2795,-0.3392,0.0,39.796,353,2022-11-07 15:49:20:467
6.33,-6.0259,1.9392,-1.0745,1.5123,-0.2818,0.0,39.796,362,2022-11-07 15:49:20:476
5.6812,-5.4873,1.8291,-1.0238,1.753,-0.2207,0.0,46.457,374,2022-11-07 15:49:20:488
5.3484,-5.425,1.5825,-1.0067,1.9075,-0.1499,0.0,46.457,382,2022-11-07 15:49:20:496
5.3484,-5.425,1.5825,-1.0171,2.0022,-0.024,0.0,46.457,393,2022-11-07 15:49:20:507
5.2383,-5.3101,1.3551,-1.0488,1.9784,0.0963,0.0,46.457,403,2022-11-07 15:49:20:517
5.3628,-5.0348,1.0127,-1.08,1.8556,0.1439,0.0,46.457,413,2022-11-07 15:49:20:527
5.5543,-4.635,1.0917,-1.1417,1.7291,0.1195,0.0,46.457,423,2022-11-07 15:49:20:537
4.8528,-4.9294,1.0869,-1.1417,1.7291,0.1195,0.0,46.457,433,2022-11-07 15:49:20:547
4.8528,-4.9294,1.0869,-1.1942,1.5654,0.2014,0.0,46.457,442,2022-11-07 15:49:20:556
5.03,-5.3388,1.1204,-1.2345,1.4109,0.2875,0.0,46.457,453,2022-11-07 15:49:20:567
5.5687,-5.5759,1.3096,-1.259,1.2692,0.3724,0.0,46.457,463,2022-11-07 15:49:20:577
6.3946,-5.8368,1.6807,-1.2449,1.0645,0.4256,0.0,46.457,473,2022-11-07 15:49:20:587
6.3946,-5.8368,1.6807,-1.2101,0.9656,0.4311,0.0,46.457,483,2022-11-07 15:49:20:597
6.6508,-5.8177,1.9847,-1.1319,0.8916,0.4268,0.0,46.457,493,2022-11-07 15:49:20:607
6.5024,-5.583,2.1571,-0.9621,0.8782,0.4311,0.0,46.457,503,2022-11-07 15:49:20:617
6.2414,-5.255,2.1284,-0.8289,0.9075,0.4561,0.0,46.457,513,2022-11-07 15:49:20:627
6.2414,-5.255,2.1284,-0.8289,0.9075,0.4561,0.0,46.457,523,2022-11-07 15:49:20:637
6.0666,-4.9175,2.0254,-0.6902,0.9442,0.4677,0.0,46.457,533,2022-11-07 15:49:20:647
5.9134,-4.6326,1.8411,-0.5253,0.9594,0.4811,0.0,46.457,544,2022-11-07 15:49:20:658
6.1816,-4.6876,1.5203,-0.364,0.88,0.4787,0.0,46.457,553,2022-11-07 15:49:20:667
6.1816,-4.6876,1.5203,-0.2736,0.778,0.472,0.0,46.457,563,2022-11-07 15:49:20:677
6.579,-5.0444,1.4963,-0.102,0.5068,0.4592,0.0,46.457,573,2022-11-07 15:49:20:687
7.2326,-5.5615,1.5418,0.0,0.2844,0.4347,0.0,46.457,583,2022-11-07 15:49:20:697
7.5773,-5.7985,1.6974,0.0886,0.0883,0.3895,0.0,46.457,593,2022-11-07 15:49:20:707
7.5773,-5.7985,1.6974,0.1717,-0.109,0.3156,0.0,46.457,603,2022-11-07 15:49:20:717
7.5486,-5.9469,1.865,0.2291,-0.2336,0.2447,0.0,46.457,612,2022-11-07 15:49:20:726
7.2326,-5.6668,1.9177,0.2816,-0.3234,0.1549,0.0,46.457,623,2022-11-07 15:49:20:737
6.8759,-5.4609,1.9632,0.3281,-0.3918,0.0413,0.0,46.457,633,2022-11-07 15:49:20:747
6.8759,-5.4609,1.9632,0.3281,-0.3918,0.0413,0.0,46.457,643,2022-11-07 15:49:20:757
6.5694,-5.4011,1.9727,0.3415,-0.4217,-0.032,0.0,46.457,653,2022-11-07 15:49:20:767
6.3132,-5.4585,1.8554,0.3305,-0.4504,-0.0967,0.0,46.457,663,2022-11-07 15:49:20:777
6.3611,-5.6596,1.8147,0.2914,-0.5897,-0.1401,0.0,46.457,675,2022-11-07 15:49:20:789
6.5263,-5.8871,2.0134,0.2261,-0.6319,-0.1529,0.0,46.457,683,2022-11-07 15:49:20:797
6.5263,-5.8871,2.0134,0.1375,-0.6404,-0.1487,0.0,46.457,693,2022-11-07 15:49:20:807
6.6556,-6.0858,2.2002,0.0593,-0.6056,-0.1413,0.0,46.457,703,2022-11-07 15:49:20:817
6.6795,-6.1959,2.339,0.0104,-0.5482,-0.1505,0.0,39.903,713,2022-11-07 15:49:20:827
6.6771,-6.148,2.521,0.0104,-0.5482,-0.1505,0.0,39.903,723,2022-11-07 15:49:20:837
6.5862,-6.1265,2.5737,-0.0329,-0.3576,-0.2727,0.0,39.903,733,2022-11-07 15:49:20:847
6.5862,-6.1265,2.5737,-0.0329,-0.3576,-0.2727,0.0,39.903,743,2022-11-07 15:49:20:857
6.4952,-6.2223,2.5473,-0.0317,-0.2843,-0.3423,0.0,39.903,753,2022-11-07 15:49:20:867
6.5215,-6.5431,2.5162,-0.0244,-0.233,-0.4187,0.0,39.903,763,2022-11-07 15:49:20:877
6.1696,-7.3595,2.3462,-0.0415,-0.2006,-0.4504,0.0,39.903,774,2022-11-07 15:49:20:888
6.1696,-7.3595,2.3462,-0.061,-0.1872,-0.4242,0.0,39.903,782,2022-11-07 15:49:20:896
5.4011,-8.3506,2.2289,-0.1111,-0.1865,-0.2953,0.0,39.903,793,2022-11-07 15:49:20:907
4.2352,-9.4902,1.956,-0.182,-0.1835,-0.0809,0.0,39.903,802,2022-11-07 15:49:20:916
3.8928,-9.8924,1.9057,-0.2394,-0.1395,0.067,0.0,39.903,813,2022-11-07 15:49:20:927
5.267,-9.0186,2.1355,-0.2858,-0.0375,0.0572,0.0,39.903,824,2022-11-07 15:49:20:938
5.267,-9.0186,2.1355,-0.2858,-0.0375,0.0572,0.0,39.903,833,2022-11-07 15:49:20:947
6.342,-8.0873,2.3678,-0.328,0.1048,-0.0381,0.0,39.903,843,2022-11-07 15:49:20:957
6.7083,-7.5127,2.3462,-0.3958,0.2924,-0.09,0.0,39.903,853,2022-11-07 15:49:20:967
6.7729,-6.9573,2.284,-0.4667,0.5001,-0.1028,0.0,39.903,863,2022-11-07 15:49:20:977
6.7729,-6.9573,2.284,-0.5094,0.599,-0.1016,0.0,39.903,872,2022-11-07 15:49:20:986
6.7538,-6.5646,2.2074,-0.5253,0.654,-0.1059,0.0,39.903,883,2022-11-07 15:49:20:997
6.591,-6.2917,2.0158,-0.5442,0.6406,-0.1132,0.0,39.903,900,2022-11-07 15:49:21:014
6.4976,-6.2079,1.9201,-0.5442,0.6406,-0.1132,0.0,39.903,903,2022-11-07 15:49:21:017
6.5024,-6.2031,1.853,-0.5601,0.5514,-0.1248,0.0,39.903,913,2022-11-07 15:49:21:027
6.5024,-6.2031,1.853,-0.5552,0.3419,-0.1511,0.0,39.903,923,2022-11-07 15:49:21:037
6.7274,-6.4665,1.9536,-0.5467,0.2032,-0.1676,0.0,39.903,932,2022-11-07 15:49:21:046
7.0482,-6.8016,2.1451,-0.5339,0.056,-0.1975,0.0,39.903,943,2022-11-07 15:49:21:057
7.2637,-6.9956,2.4085,-0.5106,-0.0295,-0.2482,0.0,39.903,953,2022-11-07 15:49:21:067
7.3044,-7.077,2.5545,-0.5106,-0.0295,-0.2482,0.0,39.903,964,2022-11-07 15:49:21:078
7.3044,-7.077,2.5545,-0.4746,-0.0289,-0.316,0.0,39.903,973,2022-11-07 15:49:21:087
7.144,-7.1248,2.7245,-0.4477,0.0126,-0.3557,0.0,39.903,983,2022-11-07 15:49:21:097
6.7992,-7.1607,2.7077,-0.386,0.1122,-0.3954,0.0,39.903,993,2022-11-07 15:49:21:107
6.5024,-7.1943,2.6407,-0.3573,0.1568,-0.3869,0.0,39.903,1002,2022-11-07 15:49:21:116
6.3803,-7.2278,2.5066,-0.3158,0.205,-0.3392,0.0,39.903,1013,2022-11-07 15:49:21:127
6.3468,-7.2134,2.4563,-0.2944,0.1995,-0.3093,0.0,39.903,1024,2022-11-07 15:49:21:138
6.3468,-7.2134,2.4563,-0.2553,0.1672,-0.2922,0.0,39.903,1033,2022-11-07 15:49:21:147
6.3108,-7.1224,2.4324,-0.2162,0.1415,-0.2971,0.0,39.865,1043,2022-11-07 15:49:21:157
6.2318,-7.1967,2.3989,-0.2162,0.1415,-0.2971,0.0,39.865,1053,2022-11-07 15:49:21:167
6.2318,-7.1967,2.3989,-0.1838,0.1378,-0.2934,0.0,39.865,1063,2022-11-07 15:49:21:177
6.3492,-7.4816,2.3797,-0.1563,0.1726,-0.2592,0.0,39.865,1073,2022-11-07 15:49:21:187
6.3492,-7.4816,2.3797,-0.1563,0.1726,-0.2592,0.0,39.865,1083,2022-11-07 15:49:21:197
6.3803,-7.5558,2.4133,-0.1392,0.1983,-0.2617,0.0,39.865,1093,2022-11-07 15:49:21:207
6.3803,-7.5558,2.4133,-0.1136,0.2258,-0.2672,0.0,39.865,1102,2022-11-07 15:49:21:216
6.2893,-7.6108,2.3965,-0.094,0.2606,-0.2617,0.0,39.865,1113,2022-11-07 15:49:21:227
6.172,-7.6372,2.3247,-0.094,0.2606,-0.2617,0.0,39.865,1123,2022-11-07 15:49:21:237
6.105,-7.6491,2.2672,-0.0727,0.3089,-0.2342,0.0,39.865,1133,2022-11-07 15:49:21:247
6.105,-7.5869,2.1834,-0.0531,0.3614,-0.1945,0.0,39.865,1144,2022-11-07 15:49:21:258
6.105,-7.5869,2.1834,-0.0427,0.3938,-0.1719,0.0,39.865,1152,2022-11-07 15:49:21:266
6.1241,-7.4648,1.9775,-0.0354,0.475,-0.1248,0.0,39.865,1163,2022-11-07 15:49:21:277
6.3563,-7.4026,1.7142,-0.0574,0.5599,-0.0754,0.0,39.865,1173,2022-11-07 15:49:21:287
6.5694,-7.3571,1.5729,-0.0959,0.607,-0.0473,0.0,39.865,1183,2022-11-07 15:49:21:297
6.5694,-7.3571,1.5729,-0.157,0.6345,-0.0271,0.0,39.865,1193,2022-11-07 15:49:21:307
6.804,-7.2661,1.4269,-0.2193,0.64,-0.0222,0.0,39.865,1202,2022-11-07 15:49:21:316